{
  "resourceType": "Bundle",
  "type": "collection",
  "entry": [
    {
      "resource": {
        "resourceType": "Patient",
        "id": "3",
        "identifier": [
          {
            "system": "urn:uvg:mrn",
            "value": "MRN-0003"
          }
        ],
        "name": [
          {
            "text": "María Gomez"
          }
        ],
        "gender": "female",
        "birthDate": "1992-11-23"
      }
    },
    {
      "resource": {
        "resourceType": "Encounter",
        "id": "4",
        "status": "finished",
        "subject": {
          "reference": "Patient/3"
        },
        "actualPeriod": {
          "start": "2101-07-11T13:00:00Z",
          "end": "2101-07-14T11:00:00Z"
        }
      }
    },
    {
      "resource": {
        "resourceType": "Condition",
        "id": "6",
        "clinicalStatus": {
          "coding": [
            {
              "system": "http://terminology.hl7.org/CodeSystem/condition-clinical",
              "code": "active"
            }
          ]
        },
        "code": {
          "coding": [
            {
              "system": "http://hl7.org/fhir/sid/icd-10",
              "code": "J45.901",
              "display": "Unspecified asthma with exacerbation"
            }
          ],
          "text": "Asthma exacerbation"
        },
        "subject": {
          "reference": "Patient/3"
        },
        "encounter": {
          "reference": "Encounter/4"
        }
      }
    },
    {
      "resource": {
        "resourceType": "Condition",
        "id": "13",
        "clinicalStatus": {
          "coding": [
            {
              "system": "http://terminology.hl7.org/CodeSystem/condition-clinical",
              "code": "active"
            }
          ]
        },
        "code": {
          "coding": [],
          "text": "COVID-19 pneumonia"
        },
        "subject": {
          "reference": "Patient/3"
        },
        "encounter": {
          "reference": "Encounter/4"
        }
      }
    },
    {
      "resource": {
        "resourceType": "Observation",
        "id": "15",
        "status": "final",
        "category": [
          {
            "coding": [
              {
                "system": "http://terminology.hl7.org/CodeSystem/observation-category",
                "code": "laboratory"
              }
            ]
          }
        ],
        "code": {
          "coding": [
            {
              "system": "http://loinc.org",
              "code": "718-7",
              "display": "Hemoglobin [Mass/volume] in Blood"
            }
          ],
          "text": "Hemoglobin"
        },
        "subject": {
          "reference": "Patient/3"
        },
        "encounter": {
          "reference": "Encounter/4"
        },
        "effectiveDateTime": "2101-07-12T08:00:00Z",
        "valueQuantity": {
          "value": 11.5,
          "unit": "g/dL",
          "system": "http://unitsofmeasure.org",
          "code": "g/dL"
        }
      }
    },
    {
      "resource": {
        "resourceType": "Observation",
        "id": "16",
        "status": "final",
        "category": [
          {
            "coding": [
              {
                "system": "http://terminology.hl7.org/CodeSystem/observation-category",
                "code": "laboratory"
              }
            ]
          }
        ],
        "code": {
          "coding": [
            {
              "system": "http://loinc.org",
              "code": "6690-2",
              "display": "Leukocytes [#/volume] in Blood"
            }
          ],
          "text": "White Blood Cells"
        },
        "subject": {
          "reference": "Patient/3"
        },
        "encounter": {
          "reference": "Encounter/4"
        },
        "effectiveDateTime": "2101-07-12T08:00:00Z",
        "valueQuantity": {
          "value": 9.1,
          "unit": "10^9/L",
          "system": "http://unitsofmeasure.org",
          "code": "10^9/L"
        }
      }
    },
    {
      "resource": {
        "resourceType": "Observation",
        "id": "17",
        "status": "final",
        "category": [
          {
            "coding": [
              {
                "system": "http://terminology.hl7.org/CodeSystem/observation-category",
                "code": "laboratory"
              }
            ]
          }
        ],
        "code": {
          "coding": [
            {
              "system": "http://loinc.org",
              "code": "777-3",
              "display": "Platelets [#/volume] in Blood"
            }
          ],
          "text": "Platelets"
        },
        "subject": {
          "reference": "Patient/3"
        },
        "encounter": {
          "reference": "Encounter/4"
        },
        "effectiveDateTime": "2101-07-12T08:00:00Z",
        "valueQuantity": {
          "value": 250.0,
          "unit": "10^9/L",
          "system": "http://unitsofmeasure.org",
          "code": "10^9/L"
        }
      }
    }
  ]
}