{
  "resourceType": "Bundle",
  "type": "collection",
  "entry": [
    {
      "resource": {
        "resourceType": "Patient",
        "id": "1",
        "gender": "f",
        "birthDate": "1980-03-12"
      }
    },
    {
      "resource": {
        "resourceType": "Encounter",
        "id": "2",
        "status": "finished",
        "subject": {
          "reference": "Patient/1"
        }
      }
    },
    {
      "resource": {
        "resourceType": "Condition",
        "id": "3",
        "clinicalStatus": {
          "coding": [
            {
              "system": "http://terminology.hl7.org/CodeSystem/condition-clinical",
              "code": "active"
            }
          ]
        },
        "code": {
          "coding": [
            {
              "system": "http://hl7.org/fhir/sid/icd-10",
              "code": "Z09",
              "display": "Follow-up exam after treatment"
            }
          ],
          "text": "Elective procedure follow-up"
        },
        "subject": {
          "reference": "Patient/1"
        },
        "encounter": {
          "reference": "Encounter/2"
        }
      }
    },
    {
      "resource": {
        "resourceType": "Observation",
        "id": "6",
        "status": "final",
        "category": [
          {
            "coding": [
              {
                "system": "http://terminology.hl7.org/CodeSystem/observation-category",
                "code": "laboratory"
              }
            ]
          }
        ],
        "code": {
          "coding": [
            {
              "system": "http://loinc.org",
              "code": "718-7",
              "display": "Hemoglobin [Mass/volume] in Blood"
            }
          ],
          "text": "Hemoglobin"
        },
        "subject": {
          "reference": "Patient/1"
        },
        "encounter": {
          "reference": "Encounter/2"
        },
        "effectiveDateTime": "2102-06-02T07:00:00Z",
        "valueQuantity": {
          "value": 12.9,
          "unit": "g/dL",
          "system": "http://unitsofmeasure.org",
          "code": "g/dL"
        }
      }
    },
    {
      "resource": {
        "resourceType": "Observation",
        "id": "7",
        "status": "final",
        "category": [
          {
            "coding": [
              {
                "system": "http://terminology.hl7.org/CodeSystem/observation-category",
                "code": "laboratory"
              }
            ]
          }
        ],
        "code": {
          "coding": [
            {
              "system": "http://loinc.org",
              "code": "6690-2",
              "display": "Leukocytes [#/volume] in Blood"
            }
          ],
          "text": "White Blood Cells"
        },
        "subject": {
          "reference": "Patient/1"
        },
        "encounter": {
          "reference": "Encounter/2"
        },
        "effectiveDateTime": "2102-06-02T07:00:00Z",
        "valueQuantity": {
          "value": 6.2,
          "unit": "10^9/L",
          "system": "http://unitsofmeasure.org",
          "code": "10^9/L"
        }
      }
    },
    {
      "resource": {
        "resourceType": "Observation",
        "id": "8",
        "status": "final",
        "category": [
          {
            "coding": [
              {
                "system": "http://terminology.hl7.org/CodeSystem/observation-category",
                "code": "laboratory"
              }
            ]
          }
        ],
        "code": {
          "coding": [
            {
              "system": "http://loinc.org",
              "code": "777-3",
              "display": "Platelets [#/volume] in Blood"
            }
          ],
          "text": "Platelets"
        },
        "subject": {
          "reference": "Patient/1"
        },
        "encounter": {
          "reference": "Encounter/2"
        },
        "effectiveDateTime": "2102-06-02T07:00:00Z",
        "valueQuantity": {
          "value": 210.0,
          "unit": "10^9/L",
          "system": "http://unitsofmeasure.org",
          "code": "10^9/L"
        }
      }
    }
  ]
}