{
  "resourceType": "Bundle",
  "type": "collection",
  "entry": [
    {
      "resource": {
        "resourceType": "Patient",
        "id": "3",
        "gender": "F",
        "birthDate": "1992-11-23"
      }
    },
    {
      "resource": {
        "resourceType": "Encounter",
        "id": "4",
        "status": "finished",
        "actualPeriod": {
          "start": "2101-07-11 13:00:00",
          "end": "2101-07-14 11:00:00"
        }
      }
    },
    {
      "resource": {
        "resourceType": "Observation",
        "id": "16",
        "status": "final",
        "category": [
          {
            "coding": [
              {
                "system": "http://terminology.hl7.org/CodeSystem/observation-category",
                "code": "laboratory"
              }
            ]
          }
        ],
        "code": {
          "coding": [
            {
              "system": "http://loinc.org",
              "code": "6690-2",
              "display": "Leukocytes [#/volume] in Blood"
            }
          ],
          "text": "White Blood Cells"
        },
        "subject": {
          "reference": "Patient/3"
        },
        "encounter": {
          "reference": "Encounter/4"
        },
        "effectiveDateTime": "2101-07-12T08:00:00Z",
        "valueQuantity": {
          "value": 9.1,
          "unit": "10^9/L",
          "system": "http://unitsofmeasure.org",
          "code": "10^9/L"
        }
      }
    }
  ]
}