{
  "resourceType": "Bundle",
  "type": "collection",
  "entry": [
    {
      "resource": {
        "resourceType": "Patient",
        "id": "7",
        "identifier": [
          {
            "system": "urn:uvg:mrn",
            "value": "MRN-0007"
          }
        ],
        "name": [
          {
            "text": "Miguel Castillo"
          }
        ],
        "gender": "male",
        "birthDate": "1959-10-30"
      }
    },
    {
      "resource": {
        "resourceType": "Encounter",
        "id": "9",
        "status": "finished",
        "subject": {
          "reference": "Patient/7"
        },
        "actualPeriod": {
          "start": "2101-05-14T07:00:00Z",
          "end": "2101-05-20T15:00:00Z"
        }
      }
    },
    {
      "resource": {
        "resourceType": "Condition",
        "id": "11",
        "clinicalStatus": {
          "coding": [
            {
              "system": "http://terminology.hl7.org/CodeSystem/condition-clinical",
              "code": "active"
            }
          ]
        },
        "code": {
          "coding": [
            {
              "system": "http://hl7.org/fhir/sid/icd-10",
              "code": "I50.9",
              "display": "Heart failure, unspecified"
            }
          ],
          "text": "Heart failure"
        },
        "subject": {
          "reference": "Patient/7"
        },
        "encounter": {
          "reference": "Encounter/9"
        }
      }
    },
    {
      "resource": {
        "resourceType": "Observation",
        "id": "29",
        "status": "final",
        "category": [
          {
            "coding": [
              {
                "system": "http://terminology.hl7.org/CodeSystem/observation-category",
                "code": "laboratory"
              }
            ]
          }
        ],
        "code": {
          "coding": [
            {
              "system": "http://loinc.org",
              "code": "2160-0",
              "display": "Creatinine [Mass/volume] in Serum or Plasma"
            }
          ],
          "text": "Creatinine"
        },
        "subject": {
          "reference": "Patient/7"
        },
        "encounter": {
          "reference": "Encounter/9"
        },
        "effectiveDateTime": "2101-05-15T07:00:00Z",
        "valueQuantity": {
          "value": 1.8,
          "unit": "mg/dL",
          "system": "http://unitsofmeasure.org",
          "code": "mg/dL"
        }
      }
    },
    {
      "resource": {
        "resourceType": "Observation",
        "id": "30",
        "status": "final",
        "category": [
          {
            "coding": [
              {
                "system": "http://terminology.hl7.org/CodeSystem/observation-category",
                "code": "laboratory"
              }
            ]
          }
        ],
        "code": {
          "coding": [
            {
              "system": "http://loinc.org",
              "code": "718-7",
              "display": "Hemoglobin [Mass/volume] in Blood"
            }
          ],
          "text": "Hemoglobin"
        },
        "subject": {
          "reference": "Patient/7"
        },
        "encounter": {
          "reference": "Encounter/9"
        },
        "effectiveDateTime": "2101-05-15T07:00:00Z",
        "valueQuantity": {
          "value": 12.7,
          "unit": "g/dL",
          "system": "http://unitsofmeasure.org",
          "code": "g/dL"
        }
      }
    },
    {
      "resource": {
        "resourceType": "Observation",
        "id": "31",
        "status": "final",
        "category": [
          {
            "coding": [
              {
                "system": "http://terminology.hl7.org/CodeSystem/observation-category",
                "code": "laboratory"
              }
            ]
          }
        ],
        "code": {
          "coding": [
            {
              "system": "http://loinc.org",
              "code": "6690-2",
              "display": "Leukocytes [#/volume] in Blood"
            }
          ],
          "text": "White Blood Cells"
        },
        "subject": {
          "reference": "Patient/7"
        },
        "encounter": {
          "reference": "Encounter/9"
        },
        "effectiveDateTime": "2101-05-15T07:00:00Z",
        "valueQuantity": {
          "value": 10.2,
          "unit": "10^9/L",
          "system": "http://unitsofmeasure.org",
          "code": "10^9/L"
        }
      }
    },
    {
      "resource": {
        "resourceType": "Observation",
        "id": "32",
        "status": "final",
        "category": [
          {
            "coding": [
              {
                "system": "http://terminology.hl7.org/CodeSystem/observation-category",
                "code": "laboratory"
              }
            ]
          }
        ],
        "code": {
          "coding": [
            {
              "system": "http://loinc.org",
              "code": "777-3",
              "display": "Platelets [#/volume] in Blood"
            }
          ],
          "text": "Platelets"
        },
        "subject": {
          "reference": "Patient/7"
        },
        "encounter": {
          "reference": "Encounter/9"
        },
        "effectiveDateTime": "2101-05-15T07:00:00Z",
        "valueQuantity": {
          "value": 160.0,
          "unit": "10^9/L",
          "system": "http://unitsofmeasure.org",
          "code": "10^9/L"
        }
      }
    }
  ]
}