{
  "resourceType": "Bundle",
  "type": "collection",
  "entry": [
    {
      "resource": {
        "resourceType": "Patient",
        "id": "2",
        "identifier": [
          {
            "system": "urn:uvg:mrn",
            "value": "MRN-0002"
          }
        ],
        "name": [
          {
            "text": "Carlos Perez"
          }
        ],
        "gender": "male",
        "birthDate": "1975-07-01"
      }
    },
    {
      "resource": {
        "resourceType": "Encounter",
        "id": "3",
        "status": "finished",
        "subject": {
          "reference": "Patient/2"
        },
        "actualPeriod": {
          "start": "2101-03-20T22:00:00Z",
          "end": "2101-03-28T10:00:00Z"
        }
      }
    },
    {
      "resource": {
        "resourceType": "Condition",
        "id": "4",
        "clinicalStatus": {
          "coding": [
            {
              "system": "http://terminology.hl7.org/CodeSystem/condition-clinical",
              "code": "active"
            }
          ]
        },
        "code": {
          "coding": [
            {
              "system": "http://hl7.org/fhir/sid/icd-10",
              "code": "A41.9",
              "display": "Sepsis, unspecified organism"
            }
          ],
          "text": "Sepsis"
        },
        "subject": {
          "reference": "Patient/2"
        },
        "encounter": {
          "reference": "Encounter/3"
        }
      }
    },
    {
      "resource": {
        "resourceType": "Condition",
        "id": "5",
        "clinicalStatus": {
          "coding": [
            {
              "system": "http://terminology.hl7.org/CodeSystem/condition-clinical",
              "code": "active"
            }
          ]
        },
        "code": {
          "coding": [
            {
              "system": "http://hl7.org/fhir/sid/icd-10",
              "code": "N17.9",
              "display": "Acute kidney failure, unspecified"
            }
          ],
          "text": "Acute Kidney Injury"
        },
        "subject": {
          "reference": "Patient/2"
        },
        "encounter": {
          "reference": "Encounter/3"
        }
      }
    },
    {
      "resource": {
        "resourceType": "Observation",
        "id": "9",
        "status": "final",
        "category": [
          {
            "coding": [
              {
                "system": "http://terminology.hl7.org/CodeSystem/observation-category",
                "code": "laboratory"
              }
            ]
          }
        ],
        "code": {
          "coding": [
            {
              "system": "http://loinc.org",
              "code": "2524-7",
              "display": "Lactate [Moles/volume] in Blood"
            }
          ],
          "text": "Lactate"
        },
        "subject": {
          "reference": "Patient/2"
        },
        "encounter": {
          "reference": "Encounter/3"
        },
        "effectiveDateTime": "2101-03-21T06:30:00Z",
        "valueQuantity": {
          "value": 3.8,
          "unit": "mmol/L",
          "system": "http://unitsofmeasure.org",
          "code": "mmol/L"
        }
      }
    },
    {
      "resource": {
        "resourceType": "Observation",
        "id": "10",
        "status": "final",
        "category": [
          {
            "coding": [
              {
                "system": "http://terminology.hl7.org/CodeSystem/observation-category",
                "code": "laboratory"
              }
            ]
          }
        ],
        "code": {
          "coding": [
            {
              "system": "http://loinc.org",
              "code": "6690-2",
              "display": "Leukocytes [#/volume] in Blood"
            }
          ],
          "text": "White Blood Cells"
        },
        "subject": {
          "reference": "Patient/2"
        },
        "encounter": {
          "reference": "Encounter/3"
        },
        "effectiveDateTime": "2101-03-21T06:30:00Z",
        "valueQuantity": {
          "value": 18.4,
          "unit": "10^9/L",
          "system": "http://unitsofmeasure.org",
          "code": "10^9/L"
        }
      }
    },
    {
      "resource": {
        "resourceType": "Observation",
        "id": "11",
        "status": "final",
        "category": [
          {
            "coding": [
              {
                "system": "http://terminology.hl7.org/CodeSystem/observation-category",
                "code": "laboratory"
              }
            ]
          }
        ],
        "code": {
          "coding": [
            {
              "system": "http://loinc.org",
              "code": "2160-0",
              "display": "Creatinine [Mass/volume] in Serum or Plasma"
            }
          ],
          "text": "Creatinine"
        },
        "subject": {
          "reference": "Patient/2"
        },
        "encounter": {
          "reference": "Encounter/3"
        },
        "effectiveDateTime": "2101-03-21T07:00:00Z",
        "valueQuantity": {
          "value": 2.5,
          "unit": "mg/dL",
          "system": "http://unitsofmeasure.org",
          "code": "mg/dL"
        }
      }
    },
    {
      "resource": {
        "resourceType": "Observation",
        "id": "13",
        "status": "final",
        "category": [
          {
            "coding": [
              {
                "system": "http://terminology.hl7.org/CodeSystem/observation-category",
                "code": "laboratory"
              }
            ]
          }
        ],
        "code": {
          "coding": [
            {
              "system": "http://loinc.org",
              "code": "718-7",
              "display": "Hemoglobin [Mass/volume] in Blood"
            }
          ],
          "text": "Hemoglobin"
        },
        "subject": {
          "reference": "Patient/2"
        },
        "encounter": {
          "reference": "Encounter/3"
        },
        "effectiveDateTime": "2101-03-21T07:00:00Z",
        "valueQuantity": {
          "value": 10.4,
          "unit": "g/dL",
          "system": "http://unitsofmeasure.org",
          "code": "g/dL"
        }
      }
    },
    {
      "resource": {
        "resourceType": "Observation",
        "id": "14",
        "status": "final",
        "category": [
          {
            "coding": [
              {
                "system": "http://terminology.hl7.org/CodeSystem/observation-category",
                "code": "laboratory"
              }
            ]
          }
        ],
        "code": {
          "coding": [
            {
              "system": "http://loinc.org",
              "code": "777-3",
              "display": "Platelets [#/volume] in Blood"
            }
          ],
          "text": "Platelets"
        },
        "subject": {
          "reference": "Patient/2"
        },
        "encounter": {
          "reference": "Encounter/3"
        },
        "effectiveDateTime": "2101-03-21T07:00:00Z",
        "valueQuantity": {
          "value": 120.0,
          "unit": "10^9/L",
          "system": "http://unitsofmeasure.org",
          "code": "10^9/L"
        }
      }
    },
    {
      "resource": {
        "resourceType": "Observation",
        "id": "12",
        "status": "final",
        "category": [
          {
            "coding": [
              {
                "system": "http://terminology.hl7.org/CodeSystem/observation-category",
                "code": "laboratory"
              }
            ]
          }
        ],
        "code": {
          "coding": [
            {
              "system": "http://loinc.org",
              "code": "2160-0",
              "display": "Creatinine [Mass/volume] in Serum or Plasma"
            }
          ],
          "text": "Creatinine"
        },
        "subject": {
          "reference": "Patient/2"
        },
        "encounter": {
          "reference": "Encounter/3"
        },
        "effectiveDateTime": "2101-03-23T07:00:00Z",
        "valueQuantity": {
          "value": 3.1,
          "unit": "mg/dL",
          "system": "http://unitsofmeasure.org",
          "code": "mg/dL"
        }
      }
    }
  ]
}