{
  "resourceType": "Bundle",
  "type": "collection",
  "entry": [
    {
      "resource": {
        "resourceType": "Patient",
        "id": "1",
        "gender": "female",
        "birthDate": "1980-03-12"
      }
    },
    {
      "resource": {
        "resourceType": "Encounter",
        "id": "2",
        "status": "finished",
        "subject": {
          "reference": "Patient/1"
        }
      }
    },
    {
      "resource": {
        "resourceType": "Observation",
        "id": "7",
        "status": "final",
        "category": [
          {
            "coding": [
              {
                "system": "http://terminology.hl7.org/CodeSystem/observation-category",
                "code": "laboratory"
              }
            ]
          }
        ],
        "code": {
          "coding": [
            {
              "system": "http://loinc.org",
              "code": "6690-2",
              "display": "Leukocytes [#/volume] in Blood"
            }
          ],
          "text": "White Blood Cells"
        },
        "subject": {
          "reference": "Patient/1"
        },
        "encounter": {
          "reference": "Encounter/2"
        },
        "effectiveDateTime": "2102-06-02T07:00:00Z",
        "valueQuantity": {
          "value": 6.2,
          "unit": "10^9/L",
          "system": "http://unitsofmeasure.org",
          "code": "10^9/L"
        }
      }
    }
  ]
}